Trial,Reaction_Time,Response,Coherence,Direction,Key_Pressed,Radius,Theta,X,Y
0,1.013901,True,0.33,right,RightArrow,3.765573,55.77411,2.117973,3.113475
1,1.311054,False,0.33,right,UpArrow,0.8192801,64.94653,0.3469355,0.7421966
2,2.244801,False,0.33,down,UpArrow,0.4367099,258.7192,-0.08542786,-0.4282728
3,2.554199,True,0.33,left,LeftArrow,2.301572,318.4981,1.723725,-1.525125
4,2.344635,True,0.33,down,DownArrow,3.333058,231.7922,-2.061548,-2.619026
5,3.323654,True,0.33,up,UpArrow,0.1536236,352.8793,0.1524387,-0.01904327
6,15.47624,False,0.33,down,LeftArrow,1.30285,76.55612,0.3029033,1.267149
7,1.412125,False,0.33,down,UpArrow,3.169204,157.5486,-2.928989,1.21032
8,1.978043,False,0.33,left,RightArrow,2.609792,298.247,1.235147,-2.299005
9,0.9094238,False,0.33,down,UpArrow,3.144767,139.0074,-2.373651,2.062848
10,1.244667,True,0.33,right,RightArrow,1.450761,291.3167,0.5273857,-1.351507
11,2.410988,False,0.33,right,UpArrow,1.803741,167.5567,-1.761371,0.3886591
12,3.800613,False,0.33,down,RightArrow,0.3348255,4.860291,0.3336216,0.02836856
13,1.959816,True,0.33,up,UpArrow,3.595557,82.18589,0.4888504,3.56217
14,3.86879,False,0.33,down,UpArrow,0.9091301,283.41,0.2108435,-0.884343
15,4.979485,True,0.33,up,UpArrow,2.675993,17.42157,2.553239,0.8011923
16,1.354759,False,0.33,down,UpArrow,0.5242805,7.184801,0.5201638,0.06557178
17,4.260376,False,0.33,down,UpArrow,1.738525,194.331,-1.684426,-0.4303242
18,6.084824,False,0.33,down,RightArrow,0.7546606,222.4394,-0.5569332,-0.5092524
19,1.290695,True,0.33,left,LeftArrow,0.2930245,86.11685,0.01984418,0.2923518
20,1.245743,False,0.33,down,UpArrow,1.686913,216.2893,-1.359717,-0.9984211
21,2.443039,True,0.33,right,RightArrow,0.3358388,7.651505,0.3328486,0.04471606
22,8.762665,False,0.33,right,LeftArrow,2.660192,232.674,-1.613004,-2.115381
23,5.480011,False,0.33,up,LeftArrow,1.434675,187.5413,-1.422265,-0.1882885
24,2.346741,True,0.33,up,UpArrow,1.877352,263.4996,-0.2125361,-1.865282
25,4.410858,True,0.33,left,LeftArrow,1.231498,235.0871,-0.7048233,-1.009857
26,8.189758,True,0.33,right,RightArrow,3.380152,180.7818,-3.379837,-0.04612162
27,4.044434,True,0.33,left,LeftArrow,0.5067444,103.8128,-0.1209854,0.4920898
28,1.610779,True,0.33,left,LeftArrow,1.371898,315.073,0.9713132,-0.9688425
29,6.148453,True,0.33,down,DownArrow,2.487494,193.0844,-2.422914,-0.5631322
30,2.777924,True,0.33,right,RightArrow,3.638108,280.475,0.6614332,-3.577477
31,2.022186,False,0.33,right,UpArrow,2.852655,133.9621,-1.980263,2.053338
32,2.542694,True,0.33,up,UpArrow,1.468014,193.5476,-1.427167,-0.3438861
33,2.465927,True,0.33,left,LeftArrow,3.206652,257.7915,-0.6781085,-3.134133
34,2.600632,False,0.33,left,UpArrow,0.01630926,282.9613,0.003658057,-0.01589373
35,1.299271,True,0.33,left,LeftArrow,3.006969,43.7179,2.173291,2.078141
36,1.923264,True,0.33,up,UpArrow,1.593261,47.56818,1.074993,1.175955
37,0.9119873,True,0.33,up,UpArrow,0.009765625,276.7007,0.001139484,-0.009698918
38,18.74342,True,0.33,down,DownArrow,2.079916,252.1755,-0.6366692,-1.980077
39,0.9670105,True,0.33,up,UpArrow,1.04412,50.99914,0.6570979,0.8114235
40,0.8409271,True,0.33,up,UpArrow,1.562398,126.1825,-0.9223748,1.261075
41,4.134476,True,0.33,left,LeftArrow,3.521717,2.642341,3.517972,0.1623553
42,3.422989,False,0.33,up,DownArrow,1.502004,310.1989,0.9694588,-1.147243
43,4.656311,False,0.33,down,LeftArrow,2.926737,284.7809,0.7466812,-2.829886
44,1.001022,True,0.33,up,UpArrow,0.6795754,11.8812,0.6650167,0.1399131
45,2.111282,True,0.33,up,UpArrow,0.9030452,321.7449,0.7091265,-0.5591334
46,2.359665,True,0.33,down,DownArrow,2.859462,328.3768,2.434873,-1.499305
47,3.921631,True,0.33,left,LeftArrow,0.7625728,305.6665,0.4446303,-0.6195329
48,9.324341,False,0.33,down,RightArrow,0.5251117,227.3432,-0.3558187,-0.3861805
49,20.34476,True,0.33,down,DownArrow,3.996359,313.1261,2.731934,-2.916748
50,3.091095,True,0.33,down,DownArrow,2.88602,225.7445,-2.014036,-2.067068
51,2.698364,False,0.33,down,LeftArrow,1.534141,317.6367,1.133557,-1.033749
52,1.822662,True,0.33,left,LeftArrow,1.40654,108.4149,-0.4443203,1.334517
53,4.330719,True,0.33,left,LeftArrow,3.327703,133.4957,-2.290457,2.414003
54,6.69989,False,0.33,right,LeftArrow,3.243326,223.2243,-2.36334,-2.221213
55,5.056122,True,0.33,left,LeftArrow,0.2936993,146.57,-0.2451094,0.1618043
56,4.184021,True,0.33,up,UpArrow,0.02981806,43.26189,0.02171437,0.02043533
57,1.323334,True,0.33,left,LeftArrow,3.073557,148.7345,-2.62719,1.595189
58,3.72229,True,0.33,right,RightArrow,1.064048,250.8713,-0.3486787,-1.005296
59,4.52301,True,0.33,down,DownArrow,1.733337,329.1758,1.488492,-0.8881707
60,4.792572,False,0.33,up,RightArrow,2.692345,264.8146,-0.2433295,-2.681327
61,4.135468,False,0.33,right,DownArrow,1.975795,4.433498,1.969883,0.1527328
62,3.714844,True,0.33,down,DownArrow,0.4642773,326.0431,0.3850984,-0.2593311
63,2.910553,True,0.33,left,LeftArrow,0.2365947,317.7325,0.1750831,-0.1591319
64,2.265839,True,0.33,up,UpArrow,2.501767,146.6761,-2.090422,1.3744
65,6.583649,True,0.33,down,DownArrow,3.78942,198.8589,-3.585995,-1.224885
66,7.555298,False,0.33,down,LeftArrow,0.898912,159.375,-0.8412968,0.3166425
67,2.278503,True,0.33,up,UpArrow,2.03117,183.2749,-2.027853,-0.116035
68,2.318878,True,0.33,up,UpArrow,0.3717804,120.809,-0.1904176,0.3193146
69,1.01236,True,0.33,right,RightArrow,0.2673945,303.8584,0.1489767,-0.2220491
70,0.7575989,False,0.33,down,UpArrow,1.023447,19.19316,0.9665592,0.3364621
71,1.633453,False,0.33,down,RightArrow,2.77491,39.39174,2.14452,1.761011
72,3.055878,False,0.33,up,RightArrow,2.699453,129.7601,-1.7265,2.07515
73,2.799133,True,0.33,left,LeftArrow,1.160685,242.1655,-0.5419457,-1.026394
74,5.578247,True,0.33,right,RightArrow,2.18666,83.04282,0.2648645,2.17056
75,1.401123,False,0.33,left,RightArrow,0.9875884,334.799,0.8935889,-0.4205113
76,4.63089,True,0.33,up,UpArrow,2.078618,357.9784,2.077325,-0.07332548
77,1.022705,True,0.33,right,RightArrow,1.56338,173.0201,-1.551793,0.1899852
78,5.92572,False,0.33,down,RightArrow,3.085063,283.6518,0.7281375,-2.997904
79,3.57962,False,0.33,left,UpArrow,2.123507,96.2394,-0.2307888,2.110928
80,5.190582,False,0.33,down,UpArrow,1.845258,190.1759,-1.816232,-0.3260042
81,1.122192,True,0.33,up,UpArrow,2.095934,326.9655,1.757111,-1.142586
82,6.897827,True,0.33,down,DownArrow,3.618599,53.64847,2.14488,2.914403
83,6.364868,False,0.33,left,RightArrow,2.636759,141.5468,-2.064891,1.639734
84,9.184143,True,0.33,down,DownArrow,3.133227,191.0025,-3.075634,-0.5979842
85,3.686523,True,0.33,down,DownArrow,0.2785425,52.76386,0.1685465,0.2217612
86,1.100128,True,0.33,left,LeftArrow,0.6022663,331.701,0.5302868,-0.2855181
87,2.111572,False,0.33,down,RightArrow,0.7772117,231.9431,-0.4791068,-0.611976
88,12.06494,False,0.33,up,LeftArrow,2.519886,182.6825,-2.517124,-0.1179338
89,4.812683,False,0.33,up,LeftArrow,0.3002434,253.8702,-0.083412,-0.2884242
90,4.399597,True,0.33,down,DownArrow,0.3129249,75.25373,0.07965156,0.3026179
91,0.8558655,True,0.33,right,RightArrow,2.619875,123.2612,-1.436887,2.190685
92,5.289429,False,0.33,down,RightArrow,0.6118331,251.0279,-0.198912,-0.5785964
93,0.9321594,True,0.33,up,UpArrow,1.510629,318.2737,1.127431,-1.005434
94,0.7138672,True,0.33,up,UpArrow,2.940819,74.40276,0.790708,2.832525
95,0.9444275,True,0.33,right,RightArrow,2.176636,230.6082,-1.381335,-1.682158
96,2.766846,False,0.33,down,UpArrow,0.7686734,248.1993,-0.2854687,-0.7136991
97,12.02118,True,0.33,down,DownArrow,3.862195,0.2350044,3.862163,0.01584114
98,1.755096,False,0.33,down,RightArrow,0.09567738,20.08288,0.0898599,0.03285361
99,1.089966,True,0.33,left,LeftArrow,1.286754,299.9297,0.6420099,-1.11515
100,0.6303711,True,0.33,up,UpArrow,1.847265,42.8953,1.353304,1.257361
101,6.414154,True,0.33,right,RightArrow,3.986203,323.0641,3.186203,-2.395397
102,2.677063,True,0.33,right,RightArrow,2.36951,127.7853,-1.451808,1.872654
103,1.374359,True,0.33,up,UpArrow,3.77205,25.12084,3.415268,1.601344
104,0.7763672,True,0.33,right,RightArrow,0.180521,233.5028,-0.107371,-0.1451183
105,1.089661,True,0.33,down,DownArrow,3.906212,7.127037,3.876031,0.4846427
106,1.377686,True,0.33,left,LeftArrow,0.1494508,344.9144,0.1443004,-0.03889636
107,0.7121887,True,0.33,up,UpArrow,3.65231,218.6946,-2.850589,-2.283311
108,1.089722,True,0.33,up,UpArrow,3.569505,62.19764,1.664899,3.157448
109,2.335266,True,0.33,up,UpArrow,3.346716,327.6809,2.828254,-1.78927
110,1.933777,True,0.33,down,DownArrow,0.2996898,67.80049,0.1132327,0.2774749
111,0.911377,True,0.33,right,RightArrow,2.024686,299.1256,0.9854658,-1.768675
112,0.7330322,False,0.33,down,UpArrow,1.752255,338.9074,1.634853,-0.6305957
113,2.290344,False,0.33,down,UpArrow,2.877015,181.278,-2.876299,-0.06416953
114,2.078125,False,0.33,down,RightArrow,1.643204,59.48346,0.8343982,1.415592
115,2.056702,False,0.33,down,UpArrow,0.1873536,276.4302,0.02098229,-0.186175
116,1.189819,True,0.33,left,LeftArrow,0.07133341,36.03194,0.05768656,0.04196088
117,3.343872,False,0.33,up,LeftArrow,0.7717018,313.6748,0.5329095,-0.5581498
118,1.089417,True,0.33,right,RightArrow,0.4369621,10.95594,0.4289979,0.08304646
119,6.033752,True,0.33,down,DownArrow,1.453805,107.3948,-0.4346215,1.387319
120,2.778137,True,0.33,down,DownArrow,0.8533478,233.3427,-0.5094727,-0.6845729
121,8.909729,False,0.33,down,RightArrow,3.122372,57.71474,1.667767,2.639651
122,1.156006,True,0.33,up,UpArrow,2.7085,169.5345,-2.663443,0.4919825
123,5.155762,False,0.33,down,RightArrow,1.678857,95.63863,-0.1649541,1.670734
124,5.097107,True,0.33,up,UpArrow,0.02412891,197.417,-0.02302264,-0.007222356
125,0.7560425,True,0.33,right,RightArrow,0.4356084,16.00103,0.4187315,0.1200775
126,0.6165161,True,0.33,right,RightArrow,0.2829719,51.4346,0.1764068,0.2212549
127,0.6328735,True,0.33,left,LeftArrow,1.160201,348.7647,1.137966,-0.2260525
128,1.445618,True,0.33,right,RightArrow,0.960228,246.6598,-0.380433,-0.881651
129,3.145325,True,0.33,right,RightArrow,3.120253,45.19273,2.198918,2.213761
130,1.92395,False,0.33,down,RightArrow,2.65275,210.0366,-2.296503,-1.327841
131,12.02234,False,0.33,down,UpArrow,0.129374,288.0025,0.03998413,-0.1230403
132,1.031616,False,0.33,left,RightArrow,3.842383,119.6339,-1.899889,3.33981
133,0.9451294,True,0.33,up,UpArrow,2.643019,42.55348,1.94697,1.787416
134,1.390076,True,0.33,down,DownArrow,3.43544,194.7616,-3.32205,-0.875343
135,4.866638,True,0.33,up,UpArrow,2.551353,263.1783,-0.3030518,-2.53329
136,2.856018,True,0.33,down,DownArrow,3.284606,354.6687,3.270396,-0.305188
137,1.319824,True,0.33,right,RightArrow,2.927911,110.8097,-1.040184,2.736911
138,2.643311,True,0.33,up,UpArrow,1.472779,116.0326,-0.6463768,1.323357
139,1.157288,False,0.33,left,DownArrow,0.7551928,1.168499,0.7550357,0.01540045
140,5.556396,True,0.33,up,UpArrow,2.560194,79.60852,0.4617895,2.518202
141,1.377563,False,0.33,up,RightArrow,2.653611,219.9083,-2.035511,-1.702453
142,3.012817,True,0.33,down,DownArrow,2.16205,89.05238,0.03575663,2.161754
143,7.911377,True,0.33,up,UpArrow,3.463826,214.8929,-2.841107,-1.981464
144,0.8007813,True,0.33,up,UpArrow,3.749864,192.5363,-3.660462,-0.8139392
145,2.456848,False,0.33,up,LeftArrow,0.3482766,288.5293,0.1106786,-0.3302224
146,0.6219482,True,0.33,up,UpArrow,2.793337,336.9583,2.570485,-1.093316
147,1.044373,False,0.33,down,UpArrow,3.514169,28.74251,3.081187,1.689873
148,3.857117,False,0.33,down,RightArrow,1.115206,355.5565,1.111854,-0.0864026
149,5.228333,False,0.33,down,RightArrow,3.275908,87.23226,0.1581851,3.272087
150,2.811646,True,0.33,down,DownArrow,2.823531,229.9766,-1.815814,-2.162209
151,4.72345,True,0.33,up,UpArrow,2.068832,105.4825,-0.5522609,1.993759
152,2.770996,True,0.33,right,RightArrow,2.239469,131.6215,-1.48747,1.674112
153,9.033142,False,0.33,down,RightArrow,1.277304,167.4039,-1.246562,0.2785506
154,3.185486,True,0.33,left,LeftArrow,3.687353,114.5138,-1.529927,3.35498
155,1.843384,True,0.33,right,RightArrow,0.2294483,204.1613,-0.2093479,-0.09391484
156,1.633789,True,0.33,up,UpArrow,1.114753,99.52264,-0.1844216,1.099392
157,1.766663,False,0.33,down,UpArrow,0.4597268,207.993,-0.4059412,-0.2157788
158,1.844666,False,0.33,up,RightArrow,0.4346981,122.6441,-0.2344841,0.3660323
159,6.147888,True,0.33,up,UpArrow,3.990836,224.4262,-2.850068,-2.793543
160,2.581787,False,0.33,up,LeftArrow,2.360534,258.3658,-0.476031,-2.312037
161,0.7960815,False,0.33,down,UpArrow,1.292368,335.197,1.173154,-0.5421484
162,1.324768,True,0.33,left,LeftArrow,2.86839,111.2273,-1.038553,2.673774
163,2.312439,True,0.33,left,LeftArrow,1.238779,313.5426,0.8533872,-0.8979446
164,0.6552124,True,0.33,up,UpArrow,3.904658,47.96485,2.614506,2.900123
165,1.477356,True,0.33,up,UpArrow,2.406996,114.9953,-1.017063,2.181562
166,1.923706,False,0.33,down,UpArrow,0.3060513,339.8941,0.2874001,-0.1052072
167,1.745239,True,0.33,right,RightArrow,1.513071,212.7646,-1.272343,-0.8188581
168,1.121277,True,0.33,up,UpArrow,0.5706892,120.8783,-0.2928866,0.4897996
169,8.700928,False,0.33,down,LeftArrow,1.932529,134.6618,-1.358414,1.374546
170,3.666931,True,0.33,down,DownArrow,0.2661438,48.71128,0.175616,0.1999789
171,8.156006,False,0.33,down,RightArrow,1.723234,210.5216,-1.484459,-0.8751668
172,5.122009,True,0.33,down,DownArrow,1.437309,244.2883,-0.6235651,-1.294999
173,0.923645,False,0.33,down,UpArrow,1.585243,303.3428,0.871325,-1.324307
174,5.487183,False,0.33,left,RightArrow,0.111712,8.579764,0.1104618,0.01666588
175,0.6501465,True,0.33,left,LeftArrow,1.930671,244.0175,-0.8458205,-1.735534
176,2.847229,True,0.33,down,DownArrow,3.484025,109.936,-1.187946,3.275242
177,3.491516,True,0.33,up,UpArrow,2.962574,78.29321,0.6011159,2.900949
178,4.05719,False,0.33,down,LeftArrow,3.771792,275.0647,0.332974,-3.757066
179,2.189819,False,0.33,up,DownArrow,0.6531143,268.2738,-0.01967436,-0.6528179
180,1.78949,True,0.33,down,DownArrow,1.455435,328.3345,1.238761,-0.7640432
181,1.979309,False,0.33,down,RightArrow,3.230906,103.2762,-0.7419619,3.144558
182,5.391907,False,0.33,right,LeftArrow,0.1712036,25.89023,0.1540203,0.07475577
183,0.7583618,True,0.33,right,RightArrow,2.380459,4.444442,2.373301,0.1844674
184,0.6677246,True,0.33,up,UpArrow,3.395221,29.55314,2.953498,1.674627
185,0.9082642,False,0.33,up,RightArrow,3.945387,184.8156,-3.93146,-0.3312121
186,2.83728,False,0.33,up,RightArrow,2.484215,358.7599,2.483633,-0.05376399
187,1.82251,True,0.33,left,LeftArrow,2.352384,55.0364,1.348048,1.927817
188,1.433228,True,0.33,right,RightArrow,1.863536,79.53088,0.3386148,1.832513
189,1.489319,True,0.33,left,LeftArrow,1.332808,46.23588,0.9218913,0.9625451
190,1.789063,True,0.33,right,RightArrow,2.414759,1.541219,2.413885,0.06494759
191,1.401001,False,0.33,down,LeftArrow,0.4479313,339.6477,0.4199678,-0.1557866
192,6.883789,False,0.33,down,RightArrow,3.074145,354.3745,3.05934,-0.301347
193,4.722534,False,0.33,up,LeftArrow,2.162946,299.494,1.064887,-1.882645
194,1.046997,True,0.33,up,UpArrow,0.531373,320.3972,0.4094135,-0.3387299
195,6.474609,False,0.33,up,LeftArrow,1.857166,163.9538,-1.784809,0.5133435
196,3.057068,True,0.33,up,UpArrow,0.6804442,308.2877,0.4216101,-0.5340874
197,0.7698975,True,0.33,left,LeftArrow,0.2360034,266.4162,-0.01475206,-0.2355419
198,0.5701294,True,0.33,up,UpArrow,0.2766848,311.894,0.1847573,-0.2059592
199,0.6219482,True,0.33,up,UpArrow,0.4577861,276.478,0.05164819,-0.4548633
200,0.913269,True,0.33,down,DownArrow,0.09741592,113.9614,-0.03956269,0.08902054
201,24.44708,False,0.33,down,RightArrow,3.731876,10.39345,3.670644,0.6732556
202,7.686218,False,0.33,up,DownArrow,1.891026,190.3203,-1.860432,-0.3387787
203,4.900696,False,0.33,up,RightArrow,0.2580347,108.9662,-0.08386374,0.2440262
204,2.606079,True,0.33,down,DownArrow,0.2590404,86.93559,0.01384795,0.2586699
205,0.829834,True,0.33,down,DownArrow,1.302615,19.45086,1.228271,0.4337686
206,1.320984,False,0.33,up,RightArrow,2.815436,145.3681,-2.316598,1.600016
207,2.785889,False,0.33,right,LeftArrow,2.701909,153.1121,-2.409813,1.22193
208,2.086853,True,0.33,left,LeftArrow,3.816161,46.95522,2.604796,2.788928
209,1.563904,False,0.33,left,RightArrow,2.279367,319.0009,1.720285,-1.495371
210,2.313232,True,0.33,right,RightArrow,2.814921,29.50245,2.449923,1.386238
211,1.501648,True,0.33,right,RightArrow,3.664107,49.96397,2.357007,2.805387
212,1.46637,True,0.33,up,UpArrow,2.131542,339.2858,1.993752,-0.7539398
213,0.9884033,True,0.33,left,LeftArrow,0.7653542,225.0351,-0.5408551,-0.541519
214,0.9232178,True,0.33,right,RightArrow,2.045474,307.5213,1.245808,-1.622321
215,0.9998779,False,0.33,right,UpArrow,2.331198,242.888,-1.0624,-2.075039
216,1.05542,True,0.33,left,LeftArrow,0.6524506,196.361,-0.6260303,-0.1837875
217,2.011719,False,0.33,down,RightArrow,1.471056,186.5613,-1.461421,-0.168092
218,0.7225342,True,0.33,up,UpArrow,1.80096,52.2778,1.101888,1.424535
219,2.144348,False,0.33,down,UpArrow,3.582305,320.0222,2.745095,-2.3016
220,2.892639,False,0.33,up,LeftArrow,0.8880606,261.0217,-0.1385916,-0.8771796
221,2.233826,True,0.33,down,DownArrow,0.2325277,326.2645,0.1933724,-0.1291366
222,1.233887,False,0.33,down,RightArrow,2.198386,319.2538,1.665516,-1.434906
223,0.611145,False,0.33,down,UpArrow,0.2665892,266.8655,-0.0145769,-0.2661904
224,0.7931519,False,0.33,down,LeftArrow,0.5863271,75.1464,0.150305,0.5667344
225,1.967468,False,0.33,down,UpArrow,3.911665,353.2816,3.884804,-0.457627
226,0.9784546,True,0.33,right,RightArrow,0.9790773,315.3911,0.6970213,-0.6875709
227,0.588562,True,0.33,left,LeftArrow,2.289651,177.5265,-2.287518,0.0988149
228,5.123962,True,0.33,up,UpArrow,0.6158319,251.0622,-0.1998632,-0.5824977
229,0.6670532,True,0.33,up,UpArrow,3.934112,106.5382,-1.119864,3.771358
230,0.9006348,False,0.33,left,DownArrow,3.572443,67.78371,1.350755,3.307235
231,0.68927,True,0.33,left,LeftArrow,1.777286,163.9167,-1.707723,0.4923701
232,3.244873,True,0.33,left,LeftArrow,1.528929,241.1018,-0.7388618,-1.338547
233,4.10022,False,0.33,right,DownArrow,2.750814,231.3498,-1.71806,-2.148313
234,4.539978,False,0.33,right,DownArrow,2.61053,16.26002,2.506111,0.7309405
235,1.823914,False,0.33,left,RightArrow,0.1244678,66.56522,0.04950149,0.1142009
236,0.6008911,True,0.33,left,LeftArrow,0.954061,156.7578,-0.8766341,0.3764904
237,2.413696,True,0.33,left,LeftArrow,2.972984,185.8641,-2.957427,-0.3037479
238,2.707947,True,0.33,up,UpArrow,3.156178,45.10257,2.227756,2.235747
239,2.420959,True,0.33,up,UpArrow,0.2690229,8.286352,0.2662144,0.03877172
240,1.356201,True,0.33,up,UpArrow,2.291755,180.6544,-2.291605,-0.02617259
241,3.980347,True,0.33,up,UpArrow,2.617484,135.8781,-1.878987,1.82226
242,8.970459,True,0.33,left,LeftArrow,1.517878,218.8494,-1.18212,-0.9521278
243,4.373596,False,0.33,up,DownArrow,1.710358,130.2238,-1.104507,1.305905
244,2.044678,True,0.33,up,UpArrow,1.165069,208.4507,-1.02436,-0.5550415
245,1.288269,True,0.33,up,UpArrow,3.167859,322.8568,2.525192,-1.912782
246,1.489258,True,0.33,up,UpArrow,1.6593,294.0962,0.6774428,-1.51471
247,2.313049,True,0.33,left,LeftArrow,1.705047,139.959,-1.305356,1.096918
248,2.923279,False,0.33,left,RightArrow,3.592878,155.4452,-3.267954,1.493067
249,1.178101,False,0.33,up,LeftArrow,3.278744,180.2967,-3.2787,-0.01697825
250,1.478271,False,0.33,up,RightArrow,2.956839,309.4497,1.878777,-2.28322
251,1.400757,True,0.33,down,DownArrow,0.641398,1.721506,0.6411085,0.01926851
252,0.7365112,False,0.33,up,LeftArrow,3.980389,229.1723,-2.602324,-3.011878
253,1.966675,True,0.33,down,DownArrow,0.9032302,175.8627,-0.9008764,0.06516536
254,12.52295,False,0.33,down,LeftArrow,2.512288,143.8352,-2.028228,1.482527
255,2.45697,False,0.33,left,RightArrow,3.952652,191.8907,-3.867838,-0.8144252
256,1.178528,True,0.33,left,LeftArrow,0.5752921,239.9541,-0.2880448,-0.4979872
257,0.8700562,True,0.33,up,UpArrow,0.9802771,137.5245,-0.7230194,0.6619562
258,4.911499,True,0.33,down,DownArrow,2.391756,238.6349,-1.244883,-2.042244
259,6.951172,True,0.33,down,DownArrow,3.753743,276.1547,0.4024484,-3.732107
260,2.234314,False,0.33,left,DownArrow,1.366522,356.6095,1.36413,-0.08081654
261,0.6785278,True,0.33,left,LeftArrow,0.8922367,196.774,-0.8542728,-0.2574964
262,3.666321,True,0.33,up,UpArrow,0.1196995,351.9369,0.1185161,-0.0167895
263,1.088623,True,0.33,down,DownArrow,1.464998,29.74561,1.271965,0.7268586
264,0.8433838,True,0.33,right,RightArrow,3.586558,303.8842,1.999562,-2.97744
265,7.210571,False,0.33,right,LeftArrow,0.1046734,120.3876,-0.0529488,0.09029365
266,0.6209717,True,0.33,right,RightArrow,2.590451,339.6893,2.429387,-0.8991749
267,2.192505,True,0.33,down,DownArrow,1.208042,17.45646,1.152406,0.3623897
268,2.910767,False,0.33,down,LeftArrow,3.669624,201.8008,-3.407174,-1.36283
269,3.465698,True,0.33,down,DownArrow,1.69758,278.8325,0.2606565,-1.677449
270,3.986572,False,0.33,up,LeftArrow,0.5855875,255.3118,-0.1484809,-0.5664505
271,5.892578,True,0.33,left,LeftArrow,3.381065,258.515,-0.6732063,-3.313366
272,7.067261,True,0.33,left,LeftArrow,0.473762,34.67822,0.3896031,0.2695549
273,0.6289063,True,0.33,right,RightArrow,1.481486,67.42584,0.568711,1.367979
274,1.619385,True,0.33,up,UpArrow,3.46649,16.64429,3.321249,0.9929033
275,2.201904,True,0.33,left,LeftArrow,3.728971,198.0373,-3.545712,-1.154624
276,0.8325195,False,0.33,down,LeftArrow,2.806013,6.814141,2.786192,0.3329307
277,1.922974,False,0.33,down,UpArrow,3.128637,15.88052,3.00923,0.856096
278,1.109497,False,0.33,down,RightArrow,0.1480465,141.4031,-0.1157063,0.09235699
279,0.9337158,True,0.33,right,RightArrow,2.580851,321.4943,2.019635,-1.606819
280,1.733398,True,0.33,left,LeftArrow,0.7630033,333.6558,0.6837609,-0.338593
281,1.733276,False,0.33,down,RightArrow,0.5141282,58.45825,0.2689506,0.4381705
282,1.021973,True,0.33,right,RightArrow,0.4776731,96.16589,-0.05130564,0.4749098
283,0.8444824,True,0.33,left,LeftArrow,2.644821,248.1782,-0.9831355,-2.455305
284,0.677002,False,0.33,down,UpArrow,2.153701,58.03541,1.140159,1.827147
285,1.556519,False,0.33,left,RightArrow,3.207357,234.5838,-1.858701,-2.61388
286,3.039185,False,0.33,right,LeftArrow,3.57592,154.0159,-3.21445,1.566688
287,2.967896,True,0.33,down,DownArrow,1.165783,343.1914,1.115976,-0.3371162
288,0.878418,True,0.33,up,UpArrow,0.8767934,108.4066,-0.2768552,0.8319362
289,0.6677246,True,0.33,right,RightArrow,0.6793113,38.40897,0.5323057,0.4220361
290,0.6776123,False,0.33,up,LeftArrow,3.930391,245.859,-1.607466,-3.586646
291,2.002808,False,0.33,right,DownArrow,0.4188857,343.2637,0.4011418,-0.1206254
292,0.5671387,True,0.33,right,RightArrow,0.2983289,118.0191,-0.1401447,0.2633621
293,0.5672607,True,0.33,left,LeftArrow,2.068544,22.07797,1.916864,0.7774994
294,4.194946,False,0.33,down,RightArrow,1.71163,301.7835,0.9015333,-1.454962
295,0.9013672,True,0.33,left,LeftArrow,3.226506,73.38923,0.9223566,3.09186
296,0.989624,True,0.33,up,UpArrow,2.767288,114.9101,-1.165568,2.509847
297,1.602173,False,0.33,down,UpArrow,3.050935,151.9576,-2.692755,1.434321
298,1.586182,False,0.33,right,LeftArrow,2.073669,4.295869,2.067843,0.155332
