Trial,Reaction_Time,Response,Coherence,Direction,Radius,Theta,X,Y
0,2.318718,True,0.5,up,0.9453673,133.821,-0.6545801,0.6820882
1,0.6727829,False,0.5,left,2.411841,148.7424,-2.061745,1.251472
2,1.290291,False,0.5,left,3.285946,3.360143,3.280297,0.1925957
3,1.666328,True,0.5,down,1.055916,306.298,0.6250859,-0.8510143
4,0.8657684,True,0.5,up,3.724102,78.19043,0.7621732,3.645275
5,1.033821,False,0.5,right,0.4240913,179.9792,-0.4240913,0.0001541576
6,1.069328,True,0.5,down,3.253957,273.0504,0.1731583,-3.249346
7,2.756302,True,0.5,up,2.571239,181.9288,-2.569782,-0.0865402
8,2.374748,True,0.5,down,1.695069,238.6963,-0.8807139,-1.44831
9,3.231987,True,0.5,down,1.039455,215.6835,-0.8442989,-0.6063213
10,1.554764,True,0.5,up,3.572566,53.4372,2.12819,2.8695
11,1.091621,False,0.5,right,2.898282,110.7236,-1.025588,2.710758
12,1.34539,True,0.5,up,0.0391283,313.9448,0.02715367,-0.02817273
13,0.7439651,True,0.5,down,2.03979,13.04832,1.987123,0.4605291
14,0.8005219,False,0.5,right,3.193488,283.3286,0.7362136,-3.107468
15,4.445099,True,0.5,down,3.287076,123.9342,-1.834978,2.72722
16,0.9327545,True,0.5,up,3.428943,205.3393,-3.099041,-1.467511
17,2.844803,False,0.5,left,3.872023,8.076668,3.833616,0.5440117
18,0.8671265,False,0.5,left,2.562048,332.5186,2.272948,-1.182284
19,2.166916,True,0.5,down,3.930135,225.6924,-2.745237,-2.812407
20,4.209366,False,0.5,left,2.913355,7.109785,2.890954,0.3605887
21,1.355942,True,0.5,down,0.4031615,325.7974,0.3334367,-0.2266257
22,1.110168,False,0.5,right,3.947012,192.094,-3.859409,-0.8269621
23,2.699509,True,0.5,down,3.04963,64.64291,1.30603,2.755817
24,1.747147,True,0.5,up,2.778234,326.3699,2.313241,-1.538667
25,1.767487,False,0.5,left,0.9173617,275.4974,0.08788338,-0.9131424
26,1.63298,True,0.5,down,0.7855029,206.3164,-0.7040928,-0.3482357
27,1.89859,False,0.5,right,0.3109641,86.69518,0.01792649,0.310447
28,2.524124,True,0.5,down,0.7736936,323.684,0.6234139,-0.4582106
29,0.9347076,False,0.5,left,0.754611,30.81601,0.6480726,0.3865742
30,2.179459,False,0.5,left,1.466921,284.9136,0.3775302,-1.417508
31,2.172638,False,0.5,left,3.780968,352.2036,3.746018,-0.5128993
32,3.578934,False,0.5,left,3.994015,8.992867,3.94492,0.6243105
33,1.834564,True,0.5,down,1.083382,178.4346,-1.082978,0.02959592
34,1.157166,False,0.5,left,1.705858,151.2037,-1.494907,0.8217078
35,2.86261,False,0.5,left,3.112319,90.84318,-0.04579984,3.111982
36,2.36702,False,0.5,left,0.8709831,25.58209,0.7855985,0.3760939
37,0.8622131,True,0.5,up,0.1506853,3.419065,0.1504171,0.008986652
38,2.189224,False,0.5,left,2.010669,26.13351,1.805119,0.885628
39,1.084061,True,0.5,down,2.838847,206.4596,-2.541475,-1.264894
40,3.421738,False,0.5,left,1.513798,97.66912,-0.2020195,1.500257
41,1.656876,True,0.5,up,2.507488,343.1385,2.399688,-0.7273182
42,1.233505,True,0.5,up,1.280555,293.3557,0.5076601,-1.175628
43,2.855453,True,0.5,down,3.077524,225.7784,-2.146372,-2.205503
44,1.982895,True,0.5,up,0.6934929,74.21479,0.1886522,0.66734
45,1.689865,False,0.5,right,2.316791,62.66413,1.063884,2.058074
46,1.532837,False,0.5,left,1.92722,276.6616,0.2235671,-1.914208
47,3.633179,True,0.5,up,0.1719546,182.3705,-0.1718075,-0.007112104
48,3.946777,True,0.5,down,1.149666,47.39309,0.7782831,0.8461716
49,4.461319,True,0.5,down,1.966832,117.6535,-0.9128527,1.742162
50,2.380402,True,0.5,up,0.610692,19.7526,0.5747593,0.2063891
51,0.6344757,False,0.5,right,1.454214,299.3528,0.7128356,-1.267519
52,3.526169,True,0.5,up,3.699606,297.2291,1.692751,-3.289632
53,1.824356,False,0.5,left,3.438654,334.4369,3.102046,-1.483797
54,2.311707,False,0.5,left,1.380779,209.8804,-1.197227,-0.6878923
55,2.289948,False,0.5,right,2.021532,75.94183,0.491044,1.960987
56,2.877136,True,0.5,up,2.32172,135.3763,-1.652452,1.630885
57,2.242828,False,0.5,right,2.124354,232.8219,-1.283736,-1.692602
58,3.744354,True,0.5,down,2.01054,346.6693,1.956367,-0.4635713
59,2.398529,False,0.5,right,2.83032,1.42921,2.829439,0.07059335
60,7.652374,False,0.5,left,2.684738,259.2676,-0.4999559,-2.637776
61,3.122467,True,0.5,down,2.708501,356.0722,2.702139,-0.1855325
62,0.9680176,False,0.5,left,2.659114,309.303,1.684341,-2.05764
63,0.9328003,True,0.5,up,2.396217,42.95998,1.753623,1.632991
64,1.301178,True,0.5,up,3.237174,79.72006,0.5776985,3.185209
65,4.243835,False,0.5,right,3.958662,322.7875,3.15267,-2.394091
66,5.344055,True,0.5,down,2.606319,358.8856,2.605826,-0.05069099
67,1.055573,False,0.5,left,2.451169,308.9328,1.540334,-1.906725
68,4.864502,False,0.5,right,0.0756321,156.77,-0.06950054,0.029831
69,2.522644,True,0.5,down,1.58294,169.5716,-1.556793,0.2865214
70,0.8233032,False,0.5,left,2.324031,26.15617,2.086041,1.024478
71,2.013519,False,0.5,right,0.1383605,188.6442,-0.1367888,-0.02079524
72,1.057495,False,0.5,right,2.49506,60.91065,1.213031,2.18034
73,2.689911,False,0.5,right,1.082082,161.7852,-1.02786,0.3382375
74,2.254608,False,0.5,left,2.748301,338.268,2.552968,-1.017601
75,1.345062,True,0.5,up,2.079188,201.0162,-1.940879,-0.7456622
76,0.9107971,True,0.5,up,3.089321,230.4853,-1.965663,-2.38329
77,2.431427,True,0.5,up,3.993431,329.5239,3.441703,-2.025383
78,2.42337,False,0.5,left,0.4989829,349.8597,0.4911886,-0.08785034
79,0.8007507,False,0.5,right,1.577715,150.6306,-1.374941,0.7737721
80,0.9560852,False,0.5,left,1.298484,335.2039,1.178771,-0.544572
81,0.6879272,False,0.5,left,1.820176,277.3971,0.2343391,-1.805028
82,0.7663574,True,0.5,up,3.625834,232.6294,-2.200764,-2.881547
83,3.111206,False,0.5,right,2.133793,123.5671,-1.179803,1.777959
84,4.659271,False,0.5,right,0.4068727,58.54511,0.2123172,0.3470833
85,0.745575,True,0.5,up,0.1329789,167.696,-0.1299245,0.02833767
86,1.110596,False,0.5,right,1.10183,168.2678,-1.078811,0.2240439
87,1.622894,False,0.5,right,1.46775,88.63057,0.03507745,1.467331
88,1.290497,True,0.5,up,2.93624,341.4843,2.784249,-0.9324483
89,1.020691,True,0.5,up,3.1399,306.9401,1.887015,-2.509611
90,2.298431,False,0.5,left,3.587005,120.1075,-1.799325,3.103068
91,1.023376,True,0.5,up,0.4861817,111.5097,-0.1782628,0.4523219
92,0.8995056,True,0.5,down,2.724393,129.5502,-1.734768,2.100689
93,4.386047,False,0.5,right,0.9846625,204.8431,-0.8935435,-0.4136912
94,0.9750366,False,0.5,left,3.612034,17.84467,3.438262,1.106863
95,0.8903809,False,0.5,right,3.344745,38.19929,2.628516,2.068386
96,0.9556885,False,0.5,left,0.6229782,85.52745,0.04858074,0.6210811
97,0.7221375,False,0.5,left,3.749065,129.9473,-2.407207,2.874168
98,0.777832,False,0.5,right,0.179647,163.7706,-0.1724881,0.05020858
99,0.5849304,False,0.5,left,3.21384,171.1277,-3.175385,0.4956793
100,0.6236572,True,0.5,down,0.4795609,140.8969,-0.3721448,0.3024679
101,0.6236267,True,0.5,up,1.676203,48.90701,1.10174,1.26326
102,0.499054,False,0.5,left,2.700759,64.66785,1.15556,2.441061
103,2.965454,True,0.5,down,3.429725,205.9952,-3.082741,-1.503235
104,1.179779,True,0.5,up,3.220285,133.9762,-2.236037,2.317408
105,2.276917,False,0.5,right,3.108387,336.8782,2.858697,-1.220623
106,4.620361,False,0.5,left,1.682049,110.6074,-0.5920187,1.574421
107,1.779236,True,0.5,down,0.667778,175.6743,-0.6658758,0.0503674
108,0.9019775,False,0.5,left,1.229172,57.45764,0.6611997,1.036184
109,0.7119446,True,0.5,up,0.1677203,180.1944,-0.1677193,-0.0005691177
110,0.7135925,True,0.5,up,3.851341,109.1755,-1.265025,3.637656
111,2.910156,False,0.5,right,0.633182,275.9025,0.06511372,-0.6298251
112,1.022491,True,0.5,down,1.900903,33.7845,1.579907,1.057037
113,0.9790039,True,0.5,up,2.560112,95.17609,-0.2309653,2.549672
114,1.959869,False,0.5,right,2.206955,141.1417,-1.718555,1.384636
115,1.202576,True,0.5,up,2.970164,183.844,-2.963482,-0.199122
116,3.488708,False,0.5,right,1.844675,324.1744,1.495667,-1.079724
117,1.277649,True,0.5,up,2.139033,120.2139,-1.076426,1.848451
118,1.712646,True,0.5,up,3.800956,18.41776,3.606264,1.200886
119,0.8863831,False,0.5,right,2.391848,160.2685,-2.251411,0.807519
120,1.366852,True,0.5,down,1.292211,188.0599,-1.279446,-0.1811787
121,1.278503,False,0.5,left,0.8114285,150.7225,-0.7077777,0.3968212
122,1.478302,True,0.5,down,3.731992,133.8468,-2.58527,2.691495
123,2.390015,False,0.5,right,3.204088,119.1731,-1.561834,2.797652
124,2.134949,False,0.5,right,2.435213,72.43719,0.7348279,2.3217
125,1.268646,True,0.5,up,1.063964,153.779,-0.9544781,0.470096
126,1.999268,True,0.5,down,0.825192,274.2744,0.06150478,-0.8228967
127,2.287872,False,0.5,left,2.298739,90.17756,-0.007123799,2.298728
128,1.413055,False,0.5,left,2.924101,345.2947,2.82832,-0.7422771
129,1.779358,True,0.5,up,1.586799,48.33568,1.054849,1.185422
130,1.720947,True,0.5,up,3.345759,250.1735,-1.134793,-3.147435
131,6.899658,True,0.5,up,0.3532538,98.16926,-0.0501966,0.3496692
132,1.075562,False,0.5,right,3.286111,329.6134,2.834705,-1.66222
133,2.04245,False,0.5,left,0.3385329,21.28048,0.31545,0.122865
134,2.279083,False,0.5,right,1.950026,29.65669,1.694584,0.9648768
135,2.490753,True,0.5,down,0.9969649,233.5337,-0.5925463,-0.8017655
136,0.9691162,False,0.5,right,1.640899,357.4055,1.639217,-0.0742781
137,0.691864,True,0.5,up,2.915285,290.6471,1.027961,-2.728036
138,3.579254,False,0.5,left,1.891281,286.41,0.5343036,-1.81424
139,1.014282,True,0.5,up,2.190349,210.2077,-1.892916,-1.102042
140,2.432678,True,0.5,down,1.396146,291.9315,0.5214586,-1.295108
141,2.125,False,0.5,right,1.251425,26.74609,1.117534,0.5631879
142,1.213287,False,0.5,left,0.3340664,50.48763,0.212548,0.257728
143,0.8099976,True,0.5,up,1.729005,330.9949,1.512148,-0.8383722
144,0.8309631,True,0.5,up,3.918015,148.7232,-3.348607,2.034129
145,1.333069,True,0.5,up,0.2102251,288.848,0.0679151,-0.1989526
146,0.6107788,False,0.5,right,1.615725,121.1779,-0.8364556,1.382356
147,0.83255,True,0.5,up,3.491243,305.9011,2.047224,-2.828013
148,1.029877,True,0.5,up,0.1652098,75.2672,0.04201476,0.1597781
149,0.666748,False,0.5,right,0.8239794,109.8167,-0.2793383,0.7751852
150,3.942535,True,0.5,down,0.5041032,10.06549,0.4963443,0.08810402
151,0.7779541,False,0.5,right,2.951361,149.1951,-2.534972,1.511439
152,0.7999268,True,0.5,down,3.870647,24.05851,3.534403,1.577945
153,2.110382,True,0.5,down,2.618549,198.357,-2.485299,-0.8246765
154,1.234833,True,0.5,up,1.858341,321.8216,1.460823,-1.148664
155,2.323029,False,0.5,left,0.1425877,280.7001,0.02647393,-0.1401084
156,0.7678833,False,0.5,left,3.809222,64.32701,1.650286,3.433181
157,1.301361,False,0.5,left,1.107362,141.2021,-0.8630338,0.693846
158,0.599823,True,0.5,up,1.600647,39.58584,1.233572,1.019986
159,1.440948,False,0.5,left,0.9915395,226.9394,-0.6769947,-0.7244506
160,1.455933,True,0.5,down,1.016078,35.47056,0.8275077,0.5896143
161,0.8681946,True,0.5,up,1.966908,145.2725,-1.616544,1.120497
162,1.52179,False,0.5,right,2.709142,173.4791,-2.691615,0.3076641
163,2.422119,True,0.5,down,3.395091,170.8449,-3.351842,0.5401854
164,1.823334,False,0.5,left,2.346534,331.5019,2.062212,-1.1196
165,4.526062,False,0.5,right,1.425321,132.3623,-0.960404,1.053168
166,3.212006,True,0.5,down,0.4699183,227.8613,-0.3152812,-0.3484551
167,2.120239,True,0.5,down,0.6261115,52.32277,0.3826872,0.4955463
168,1.946075,False,0.5,left,2.821095,22.92911,2.598193,1.099076
169,1.479126,True,0.5,down,2.66324,315.6883,1.905681,-1.860438
170,2.000793,False,0.5,right,1.741023,75.44466,0.4375452,1.685145
171,2.236084,True,0.5,up,3.55919,211.9967,-3.018474,-1.885908
172,4.487549,True,0.5,down,3.093123,164.7002,-2.983498,0.8161799
173,7.817993,False,0.5,right,0.8324466,223.198,-0.6068469,-0.5698282
174,0.7145996,True,0.5,up,0.2497911,97.43069,-0.03230467,0.2476934
175,0.656189,False,0.5,left,1.521334,3.51275,1.518476,0.09321311
176,0.9332275,False,0.5,right,3.404594,164.8328,-3.286,0.8907648
177,1.857361,False,0.5,left,1.290623,129.2316,-0.8162625,0.9997122
178,0.9344482,False,0.5,right,2.877602,243.0686,-1.303335,-2.565523
179,4.234192,True,0.5,down,1.800966,356.8796,1.798296,-0.09803534
180,1.411621,True,0.5,up,3.65497,10.20201,3.597183,0.6473653
181,0.7927856,False,0.5,left,1.397324,46.19923,0.9671621,1.00852
182,1.024414,True,0.5,up,1.789418,137.9192,-1.328107,1.199229
183,1.543884,False,0.5,right,2.238468,295.1945,0.9528998,-2.025518
184,2.667419,True,0.5,up,1.275833,334.7039,1.153496,-0.5451592
185,1.034546,False,0.5,left,2.241294,230.8422,-1.415283,-1.737922
186,1.732971,True,0.5,up,2.998487,199.4144,-2.827991,-0.9966902
187,1.678589,False,0.5,right,2.989358,321.5233,2.340253,-1.859967
188,1.076965,True,0.5,up,0.2416582,279.1345,0.038364,-0.2385936
189,0.6243286,True,0.5,up,1.500234,23.13995,1.379537,0.5895597
190,5.321472,True,0.5,up,0.4704165,329.7591,0.4064001,-0.2369191
191,0.7767944,True,0.5,up,3.854567,61.16698,1.858898,3.376712
192,0.8908081,False,0.5,left,1.249264,209.3058,-1.089383,-0.6114785
193,1.650513,False,0.5,right,2.640107,268.0464,-0.09000401,-2.638572
194,2.14679,True,0.5,down,0.7373085,117.3476,-0.33871,0.6549041
195,0.6103516,False,0.5,right,2.914859,152.834,-2.593314,1.330835
196,1.310181,False,0.5,left,2.086179,268.3033,-0.06176701,-2.085264
197,1.014221,True,0.5,down,0.5743213,112.3863,-0.2187298,0.5310388
198,0.6229248,True,0.5,up,2.645553,25.93829,2.379055,1.157173
199,2.277344,True,0.5,up,3.983391,7.468815,3.949595,0.5177872
200,1.11145,True,0.5,up,2.231501,69.32184,0.787984,2.087745
201,2.32959,False,0.5,left,0.8110123,353.78,0.8062381,-0.08786982
202,1.125793,True,0.5,down,2.893514,91.86868,-0.09435418,2.891975
203,1.8125,False,0.5,right,1.212101,308.2786,0.7508788,-0.951509
204,0.8677979,False,0.5,right,2.86552,245.5958,-1.183949,-2.609495
205,8.178833,False,0.5,right,3.602139,55.54893,2.037737,2.970358
206,1.100525,True,0.5,down,2.516881,9.521413,2.482208,0.416333
207,3.831848,True,0.5,up,1.322589,133.8289,-0.915902,0.9541301
208,4.546753,True,0.5,down,1.337237,151.5408,-1.175641,0.6372373
209,0.8119507,True,0.5,up,1.678083,154.8015,-1.518394,0.7144521
210,0.789978,False,0.5,left,3.0965,5.38918,3.082813,0.2908243
211,0.7579956,True,0.5,up,2.147037,241.3646,-1.028934,-1.884426
212,1.645569,True,0.5,down,3.895256,78.05636,0.8061211,3.81093
213,1.931335,True,0.5,up,0.1778083,261.2449,-0.02706436,-0.1757365
214,0.7132568,True,0.5,down,1.841637,78.11781,0.3791931,1.802176
215,2.478577,True,0.5,down,1.348283,58.08386,0.7128069,1.144453
216,1.090027,True,0.5,up,1.158787,197.918,-1.102583,-0.356507
217,1.501038,False,0.5,right,1.794513,270.0384,0.001201411,-1.794513
218,0.9238281,True,0.5,up,3.31948,8.903646,3.27948,0.5137668
219,1.36676,True,0.5,up,0.1168261,61.10162,0.05645708,0.1022787
220,0.7751465,True,0.5,up,0.1037989,334.2419,0.09348512,-0.04510807
221,0.6212769,False,0.5,left,3.026642,72.84888,0.8925352,2.892048
222,1.047119,True,0.5,up,1.317052,215.7189,-1.069303,-0.7689068
223,1.010132,False,0.5,right,0.8634057,167.4012,-0.8426159,0.1883292
224,0.6013184,False,0.5,left,0.2651396,319.7498,0.2023625,-0.1713138
225,0.5217896,True,0.5,up,0.5201645,356.9665,0.5194356,-0.02752722
226,0.5546875,False,0.5,right,2.19745,21.60946,2.043004,0.8092728
227,0.6348877,False,0.5,left,3.707094,48.97671,2.43321,2.796791
228,3.966797,True,0.5,down,0.2648425,62.47401,0.1223972,0.2348627
229,0.7737427,False,0.5,left,2.325283,187.1874,-2.307012,-0.2909296
230,2.570129,True,0.5,down,2.359428,157.9209,-2.186401,0.8868755
231,1.047485,False,0.5,left,1.315651,59.14983,0.674659,1.129501
232,2.29834,False,0.5,left,2.631573,75.96716,0.6380989,2.553039
233,2.869385,True,0.5,down,1.702735,93.5556,-0.1055987,1.699458
234,0.6793823,False,0.5,left,3.211089,297.588,1.487091,-2.845989
235,2.388428,False,0.5,left,0.8137088,5.453124,0.8100262,0.07732784
236,0.6697998,True,0.5,down,2.27306,17.10219,2.172549,0.6684545
237,0.7248535,False,0.5,left,1.545646,114.6903,-0.6456369,1.404342
238,2.255615,True,0.5,up,3.550634,41.63029,2.653911,2.358763
239,1.057983,True,0.5,down,0.6661968,240.3313,-0.3297574,-0.5788594
240,0.8325806,False,0.5,left,1.881757,45.77445,1.312497,1.348467
241,1.400452,True,0.5,down,0.9971113,55.17686,0.5693957,0.8185472
242,0.6803589,False,0.5,left,3.622606,82.95647,0.4442161,3.595268
243,4.618286,False,0.5,right,3.061162,0.00682354,3.061162,0.0003645636
244,0.8345947,True,0.5,down,3.685402,189.6259,-3.633514,-0.6162499
245,1.600525,False,0.5,left,0.5973396,5.446901,0.5946424,0.05670141
246,1.567078,False,0.5,left,2.950015,205.1264,-2.670865,-1.252623
247,3.476929,True,0.5,down,0.9466729,219.5462,-0.7299906,-0.6027465
248,3.052124,True,0.5,down,1.363575,57.9767,0.7230549,1.156083
249,0.6896362,False,0.5,left,2.241253,215.5832,-1.822747,-1.30415
250,4.844971,True,0.5,up,3.497166,357.9763,3.494985,-0.1234946
251,0.9760742,False,0.5,right,0.8164845,274.509,0.06418797,-0.8139575
252,2.989746,False,0.5,right,2.253587,274.1956,0.1648769,-2.247547
253,0.8374634,False,0.5,left,2.936674,46.74232,2.012446,2.138718
254,1.776245,True,0.5,down,0.004885674,85.57491,0.0003769569,0.00487111
255,0.5786133,False,0.5,right,2.931232,343.1303,2.805093,-0.8506315
256,1.569519,False,0.5,right,2.480284,133.7293,-1.714502,1.792288
257,1.090942,True,0.5,up,2.322547,54.51429,1.348238,1.891158
258,1.39093,True,0.5,up,2.530913,324.9136,2.071011,-1.454798
259,1.322998,False,0.5,right,1.702636,184.2953,-1.697854,-0.127522
260,0.9205933,False,0.5,left,3.474625,214.4438,-2.865459,-1.965239
261,5.213318,True,0.5,down,3.67982,67.75903,1.392822,3.406042
262,0.9892578,False,0.5,left,0.4947128,161.6817,-0.4696432,0.1554865
263,0.7774048,False,0.5,right,2.76399,61.52708,1.317714,2.429665
264,0.9241943,True,0.5,up,0.5315418,238.3866,-0.278626,-0.4526635
265,0.934021,False,0.5,left,0.645309,29.38598,0.5622796,0.3166471
266,0.8098755,False,0.5,left,0.2588077,341.9822,0.2461158,-0.08005259
267,0.5725708,False,0.5,right,3.215279,169.4349,-3.160771,0.5895318
268,3.955811,True,0.5,down,1.078683,30.98436,0.924763,0.5553103
269,0.965271,False,0.5,right,2.876122,134.3939,-2.012099,2.055125
270,2.38916,True,0.5,down,1.695905,99.28188,-0.2735355,1.6737
271,0.9332275,False,0.5,left,0.9798012,351.0891,0.9679754,-0.1517691
272,1.956116,True,0.5,down,1.664825,173.0869,-1.652722,0.2003844
273,1.623596,True,0.5,down,3.589762,166.2527,-3.486926,0.8530744
274,0.9298706,True,0.5,up,1.755981,269.6436,-0.01092438,-1.755947
275,2.090393,True,0.5,down,1.159075,239.4586,-0.5889969,-0.9982678
276,2.059143,False,0.5,right,2.836799,343.9274,2.725914,-0.7853824
277,1.456238,True,0.5,up,2.060582,169.5378,-2.026325,0.3741753
278,2.223572,True,0.5,down,0.782927,302.8921,0.4251752,-0.6574198
279,1.610474,True,0.5,down,0.5719414,214.1351,-0.4734052,-0.3209431
280,0.7218018,False,0.5,left,0.3166161,27.08229,0.2819002,0.1441457
281,0.6132202,True,0.5,up,3.10322,26.2114,2.784118,1.370644
282,4.68811,True,0.5,down,1.567794,328.0965,1.330962,-0.828563
283,1.871887,True,0.5,up,3.80784,50.75859,2.408798,2.949125
284,3.110596,True,0.5,up,3.553934,172.2094,-3.521131,0.4817476
285,5.746704,True,0.5,down,0.8696795,213.4116,-0.7259528,-0.4788893
286,1.634033,False,0.5,left,2.05878,7.489672,2.041215,0.2683567
287,1.687988,False,0.5,right,1.658266,253.652,-0.4667525,-1.591222
288,1.256531,False,0.5,right,2.990503,301.074,1.543533,-2.56137
289,2.65625,True,0.5,up,0.5979142,122.2435,-0.3189981,0.5057091
290,2.146667,True,0.5,down,0.8769093,146.1827,-0.7285509,0.4880404
291,1.632874,True,0.5,up,0.9890776,322.6302,0.7860541,-0.6003277
292,0.8570557,False,0.5,right,1.061188,155.8663,-0.9684338,0.4338858
293,0.8773804,True,0.5,up,1.853528,186.268,-1.842448,-0.2023671
294,0.8043823,False,0.5,left,2.962092,344.7139,2.857298,-0.7809212
295,2.974182,True,0.5,up,2.442102,100.5287,-0.4462421,2.400985
296,2.566711,False,0.5,right,1.931919,97.51566,-0.2526894,1.915322
297,1.468323,True,0.5,up,0.3563704,21.84537,0.33078,0.1326065
298,1.414795,True,0.5,up,0.4236221,318.5529,0.3175335,-0.2804072
299,1.855652,True,0.5,down,3.845772,262.0441,-0.5322957,-3.808756
300,6.047058,True,0.5,down,2.742365,47.34245,1.858268,2.016782
301,0.9328003,False,0.5,right,1.319673,267.6584,-0.0539171,-1.318571
302,4.122498,True,0.5,down,2.718913,133.1654,-1.860028,1.983124
303,3.589539,True,0.5,down,0.001438618,12.28825,0.001405658,0.000306181
304,0.6040039,True,0.5,up,2.052431,171.6421,-2.030633,0.2983335
305,0.8467407,True,0.5,up,2.547503,170.7961,-2.514705,0.4074669
306,0.8106689,True,0.5,down,1.864315,303.0964,1.018008,-1.561836
307,1.091187,True,0.5,up,0.5347567,28.63222,0.4693632,0.2562476
308,2.088928,False,0.5,down,0.7076554,299.9044,0.3528041,-0.6134375
309,0.6442261,False,0.5,right,3.797887,209.6217,-3.301532,-1.877187
310,3.202026,True,0.5,right,1.90616,187.3676,-1.890422,-0.2444376
311,3.999878,False,0.5,down,0.8881035,95.74484,-0.08889779,0.883643
312,0.7001953,False,0.5,right,1.319225,165.788,-1.278848,0.3238832
313,2.398987,False,0.5,right,2.252788,224.0193,-1.619994,-1.565463
314,2.580017,True,0.5,down,1.021815,238.4377,-0.5348429,-0.8706596
315,5.133118,True,0.5,down,2.642917,87.32333,0.1234236,2.640033
316,3.627014,True,0.5,up,0.9579539,162.0657,-0.9114074,0.2949786
317,0.9674683,True,0.5,up,2.420446,302.0862,1.285727,-2.050723
318,3.455933,False,0.5,right,1.347149,359.9475,1.347148,-0.001235043
319,0.6821289,False,0.5,right,0.5215077,237.8297,-0.2776703,-0.4414403
320,0.7072144,False,0.5,left,1.369713,138.4891,-1.025682,0.9077941
321,2.32312,False,0.5,right,3.191329,182.4752,-3.188352,-0.1378214
322,5.858276,False,0.5,up,1.583153,340.1825,1.489394,-0.5367292
323,5.67981,False,0.5,left,0.3760238,60.39627,0.1857552,0.3269387
324,0.9069824,True,0.5,up,2.598143,322.925,2.072919,-1.566318
325,2.608093,False,0.5,up,0.3142099,347.4304,0.306679,-0.06838014
326,0.5765381,True,0.5,down,0.7231264,159.9351,-0.6792361,0.2480931
327,1.712463,False,0.5,left,3.145078,106.6774,-0.902585,3.012782
328,2.335205,True,0.5,up,3.394233,229.7948,-2.191067,-2.592305
329,5.233643,False,0.5,left,1.860815,214.0249,-1.542233,-1.041226
330,3.241333,True,0.5,up,3.169096,178.0659,-3.16729,0.1069585
331,2.791077,False,0.5,right,0.4644337,182.5322,-0.4639801,-0.02051942
332,2.277466,True,0.5,down,2.137364,240.2252,-1.0614,-1.855197
333,6.266724,False,0.5,left,1.749889,331.9061,1.543712,-0.8240532
334,2.78772,False,0.5,left,1.212807,254.9296,-0.3153367,-1.171095
335,1.897644,True,0.5,down,3.489481,203.6553,-3.196281,-1.400096
336,3.489136,False,0.5,right,3.37309,293.041,1.320195,-3.104001
337,4.351501,False,0.5,left,3.000371,138.2171,-2.237301,1.999178
338,2.799927,False,0.5,right,3.371149,261.0705,-0.523269,-3.330291
339,3.502075,False,0.5,right,0.827282,300.5511,0.4205126,-0.7124356
340,4.458618,False,0.5,left,0.0115366,115.0798,-0.004890126,0.01044891
341,1.991028,True,0.5,down,0.8924346,58.41637,0.467406,0.7602441
342,2.542236,False,0.5,left,1.577641,152.9415,-1.404956,0.71767
343,1.067932,True,0.5,down,3.110736,110.768,-1.103018,2.908614
344,1.123352,True,0.5,up,3.36259,50.01384,2.160809,2.576416
345,1.022278,True,0.5,up,3.978107,180.9306,-3.977583,-0.06461193
346,3.38147,True,0.5,up,0.3370924,170.6273,-0.3325922,0.0548976
347,0.8348999,False,0.5,right,3.118216,138.7566,-2.344635,2.055714
348,0.9700317,True,0.5,up,3.015603,214.5351,-2.48419,-1.709579
349,2.5224,False,0.5,left,0.6493359,230.3985,-0.413915,-0.5003113
350,0.5777588,True,0.5,up,0.422699,87.39104,0.01924092,0.4222609
351,0.6448975,False,0.5,right,3.26801,206.5572,-2.923197,-1.461097
352,4.800598,False,0.5,right,3.776636,25.10264,3.41993,1.602205
353,0.8378296,True,0.5,down,3.072714,76.31181,0.7271208,2.985442
354,0.8554077,False,0.5,left,0.4792438,110.8951,-0.1709263,0.4477262
355,0.6633911,True,0.5,up,2.628247,95.99191,-0.2743572,2.613888
356,2.809143,True,0.5,down,3.045111,215.3077,-2.484992,-1.759976
357,2.846985,True,0.5,up,1.94662,118.0554,-0.9155431,1.717879
358,0.9125366,True,0.5,up,0.1115217,306.5054,0.06634415,-0.08964122
359,0.6221313,False,0.5,left,1.467583,271.9739,0.05054903,-1.466712
360,1.772339,True,0.5,down,2.547916,280.2237,0.4522343,-2.507461
361,2.911804,False,0.5,left,2.47984,258.2439,-0.5052572,-2.427822
362,2.202698,True,0.5,down,0.5122738,90.02813,-0.0002514996,0.5122737
363,0.899353,True,0.5,up,1.26791,91.39159,-0.03079179,1.267536
364,1.165649,False,0.5,right,2.36876,281.5492,0.4742465,-2.3208
365,0.9550781,False,0.5,left,0.7215557,67.4882,0.2762647,0.6665737
366,1.067322,False,0.5,left,3.378905,281.0175,0.6457388,-3.316628
367,3.634583,True,0.5,up,1.225742,320.1663,0.941256,-0.7851629
368,0.8092041,True,0.5,up,2.880614,75.34888,0.7286014,2.786947
369,2.012939,True,0.5,up,2.193404,154.1382,-1.973732,0.9567671
370,1.351135,False,0.5,left,3.147271,24.95875,2.853353,1.32804
371,3.662659,False,0.5,left,1.992862,172.5943,-1.976238,0.2568673
372,3.526611,False,0.5,left,2.879462,255.7073,-0.7108683,-2.790335
373,2.345398,True,0.5,down,3.56514,213.2883,-2.980171,-1.956732
374,2.992126,False,0.5,down,3.169415,335.6799,2.888158,-1.305272
375,2.726135,False,0.5,left,2.169319,293.9645,0.8811148,-1.982317
376,1.500732,True,0.5,up,1.81003,336.6176,1.661384,-0.7183393
377,1.043823,True,0.5,up,3.897343,39.51576,3.006604,2.479842
378,1.130859,False,0.5,left,1.768863,345.4073,1.711802,-0.4456585
379,4.121948,True,0.5,down,1.765272,324.9402,1.444969,-1.014027
380,2.655884,False,0.5,right,2.790414,188.423,-2.760316,-0.4087387
381,9.177368,False,0.5,right,0.9245205,257.6905,-0.1971008,-0.903266
382,0.7894287,False,0.5,right,1.789602,126.4747,-1.06386,1.439054
383,0.8337402,False,0.5,left,2.31693,338.8182,2.160395,-0.8371716
384,0.7131348,True,0.5,down,0.09093189,4.147167,0.09069379,0.006576061
385,0.574707,False,0.5,left,3.215549,117.2992,-1.47477,2.857413
386,1.856689,False,0.5,right,2.510982,239.2162,-1.285119,-2.157197
387,1.767212,True,0.5,up,3.034054,270.052,0.002751754,-3.034053
388,2.178345,False,0.5,left,0.07555628,92.04459,-0.002695644,0.07550818
389,0.9855957,False,0.5,left,1.582866,149.6321,-1.365692,0.8002189
390,1.428589,True,0.5,up,2.381942,86.25435,0.1556061,2.376854
391,0.9589844,False,0.5,left,3.397979,223.3217,-2.472075,-2.331332
392,1.963257,True,0.5,up,1.303599,151.4087,-1.144632,0.6238492
393,2.488892,True,0.5,down,0.1259789,248.6739,-0.04581545,-0.1173526
394,0.9779053,True,0.5,down,1.811877,297.6735,0.8414946,-1.604614
395,0.7119141,True,0.5,up,2.709447,299.7276,1.343554,-2.352863
396,5.501709,True,0.5,down,2.318097,50.67131,1.469136,1.793101
397,1.133545,False,0.5,right,2.881608,308.6105,1.79819,-2.251704
398,2.234131,True,0.5,down,2.732436,174.2773,-2.718817,0.2724638
399,4.200195,True,0.5,down,3.958945,157.47,-3.656794,1.516939
400,6.156128,False,0.5,down,2.988561,292.841,1.160084,-2.754215
401,1.999634,True,0.5,up,3.43094,33.25776,2.868993,1.88155
402,0.9407959,False,0.5,right,0.03052855,250.6974,-0.01009145,-0.02881241
403,1.856323,False,0.5,right,0.2424278,357.23,0.2421446,-0.01171559
404,0.7445068,False,0.5,left,2.83198,296.0721,1.244661,-2.543802
405,5.786499,True,0.5,down,0.1819077,126.0617,-0.1070811,0.1470512
406,0.9637451,True,0.5,down,0.8565197,108.0694,-0.265665,0.8142776
407,0.5672607,False,0.5,right,2.476093,36.83239,1.981846,1.484359
408,1.433472,False,0.5,left,0.1046615,12.07183,0.102347,0.02188867
409,0.5526123,False,0.5,right,2.793546,42.79754,2.04979,1.897963
410,0.7449951,True,0.5,up,3.866137,296.0362,1.696999,-3.473788
411,2.710327,True,0.5,up,2.470655,33.02546,2.071468,1.346536
412,0.6904297,False,0.5,left,1.148708,346.1381,1.115253,-0.2752101
413,0.8773193,True,0.5,down,0.7635527,274.9422,0.06578084,-0.7607139
414,1.521729,True,0.5,down,2.064193,348.6519,2.023838,-0.4061719
415,3.884521,True,0.5,right,0.02389574,167.8487,-0.02336036,0.005029908
416,0.6558838,False,0.5,left,2.356283,213.17,-1.972329,-1.289182
417,3.010498,False,0.5,left,2.626916,41.57119,1.965279,1.743091
418,0.6330566,False,0.5,right,1.130766,102.0032,-0.2351609,1.106043
419,1.149902,False,0.5,left,3.013929,281.7015,0.6112643,-2.951292
420,2.548096,False,0.5,right,0.4863887,114.4516,-0.2013282,0.4427651
421,0.7347412,False,0.5,right,1.608711,280.2338,0.2858118,-1.583119
422,0.8120117,False,0.5,right,3.760375,237.0568,-2.044921,-3.155743
423,1.955811,False,0.5,left,0.4771314,153.6292,-0.4274804,0.2119313
424,0.8233643,False,0.5,right,3.233768,87.92809,0.1169128,3.231653
425,1.544678,False,0.5,left,1.700077,332.5992,1.509344,-0.7823969
426,0.7659912,True,0.5,up,2.101374,301.3286,1.0926,-1.794993
427,0.744873,True,0.5,up,0.1130052,64.67107,0.04834523,0.1021416
428,0.5666504,True,0.5,down,3.368923,172.3277,-3.338764,0.4497754
429,0.69104,False,0.5,left,2.555381,332.8674,2.274171,-1.165384
430,0.9780273,False,0.5,left,0.4107876,296.3662,0.1824338,-0.3680548
431,0.6342773,False,0.5,left,0.2372398,203.3137,-0.2178696,-0.09389138
432,0.496582,True,0.5,up,1.928439,126.922,-1.158465,1.541699
433,0.8112793,True,0.5,up,3.619121,80.29971,0.6098012,3.567377
434,0.9862061,False,0.5,left,0.2047997,104.79,-0.05228057,0.1980142
435,0.8084717,False,0.5,left,1.695087,228.4572,-1.124147,-1.268705
436,0.6911621,True,0.5,up,3.517001,76.77045,0.8048764,3.423663
437,0.7781982,True,0.5,up,0.1883912,324.4842,0.153342,-0.1094416
438,0.5235596,False,0.5,right,3.477346,82.51153,0.4531911,3.447688
439,1.246582,True,0.5,up,1.205767,324.6195,0.9830914,-0.6981441
440,0.6016846,True,0.5,down,1.179001,107.6725,-0.3579165,1.123361
441,0.8999023,True,0.5,up,2.796138,319.2668,2.118792,-1.824585
442,7.835571,False,0.5,left,1.883978,245.7152,-0.7748274,-1.71727
443,1.63501,False,0.5,right,2.17357,232.4391,-1.325019,-1.723001
444,2.257324,False,0.5,right,1.623523,203.2042,-1.49219,-0.6396837
445,4.424194,False,0.5,left,1.511975,286.1981,0.4217792,-1.451954
446,2.174805,True,0.5,down,3.911078,79.92918,0.6839117,3.850818
447,5.392334,True,0.5,up,0.1992927,204.7198,-0.1810303,-0.08334032
448,0.6447754,False,0.5,left,2.08862,305.8615,1.223571,-1.692692
449,1.056763,True,0.5,down,3.387616,166.9141,-3.299646,0.7669933
450,4.479492,False,0.5,down,0.06797838,98.61288,-0.01018028,0.06721177
451,0.932373,True,0.5,down,1.951402,359.692,1.951374,-0.01049008
452,0.7106934,False,0.5,left,1.772833,9.372797,1.749165,0.2887191
453,0.5839844,True,0.5,up,3.675323,278.8648,0.5663777,-3.631421
454,1.688965,False,0.5,right,3.412438,48.60064,2.256657,2.559733
455,5.068115,False,0.5,down,1.067293,53.01852,0.6420375,0.8525856
456,1.010376,False,0.5,left,0.5169725,323.7849,0.4170955,-0.3054373
457,0.6904297,False,0.5,left,0.7566643,237.2539,-0.4092925,-0.6364121
458,2.289795,False,0.5,left,3.151701,180.5252,-3.151569,-0.02888837
459,1.033813,False,0.5,right,3.437239,45.37066,2.414721,2.446168
460,0.9310303,True,0.5,up,1.476096,55.57323,0.8345148,1.217557
461,0.779541,True,0.5,up,3.931047,49.45419,2.5554,2.987149
462,1.713867,True,0.5,down,2.750379,165.8215,-2.666595,0.6736869
463,1.877686,False,0.5,right,3.049092,155.6869,-2.778666,1.255379
464,1.512085,True,0.5,down,2.511221,55.47932,1.423118,2.06905
465,0.9445801,True,0.5,up,0.6581216,251.5376,-0.2084155,-0.6242492
466,0.9223633,False,0.5,left,3.171421,197.7731,-3.020058,-0.9680691
467,2.221069,True,0.5,up,0.6288848,189.3615,-0.620509,-0.1022966
468,0.645874,True,0.5,up,3.173889,293.744,1.277968,-2.905231
469,3.899536,True,0.5,down,3.361315,117.9359,-1.57472,2.969629
470,2.567383,True,0.5,up,3.810824,21.78134,3.538757,1.414065
471,1.344116,False,0.5,left,3.829397,356.8537,3.823625,-0.2101793
472,1.068726,True,0.5,up,3.774648,32.69711,3.17651,2.039057
473,0.8344727,True,0.5,up,1.08885,114.522,-0.4519189,0.9906383
474,0.7115479,True,0.5,down,1.862935,40.69473,1.412467,1.214687
475,0.9903564,True,0.5,up,3.214347,228.7545,-2.119177,-2.41684
476,3.146729,True,0.5,down,3.057507,259.8193,-0.5404225,-3.009367
477,2.433594,True,0.5,up,1.217326,345.0856,1.176317,-0.3133095
478,0.7775879,False,0.5,right,3.174701,299.6554,1.570784,-2.758869
479,1.134155,False,0.5,right,1.011171,195.8423,-0.9727636,-0.2760397
480,0.5686035,True,0.5,up,1.323606,23.10974,1.217393,0.5195067
481,0.765625,True,0.5,down,3.938106,83.08651,0.474032,3.909472
482,1.544678,False,0.5,left,0.1842175,241.5549,-0.08774577,-0.1619776
483,0.8331299,False,0.5,right,2.596613,319.4672,1.973514,-1.687496
484,2.51062,False,0.5,left,0.5040112,347.0674,0.4912264,-0.1128003
485,0.8775635,True,0.5,up,2.611803,114.5519,-1.085249,2.375658
486,8.356201,True,0.5,down,2.058812,4.044857,2.053684,0.1452233
487,2.78894,False,0.5,right,2.223154,238.3849,-1.1654,-1.893213
488,5.000244,True,0.5,up,2.098086,51.22955,1.313825,1.635796
489,2.989868,True,0.5,down,0.886992,183.928,-0.8849084,-0.06076177
490,3.231812,False,0.5,right,3.085176,308.0073,1.899735,-2.430909
491,3.011108,True,0.5,up,2.957016,356.6969,2.952104,-0.1703773
492,1.445557,False,0.5,right,3.933075,357.6465,3.929757,-0.1615115
493,0.7779541,False,0.5,left,0.3418531,328.8427,0.2925407,-0.1768714
494,0.9848633,False,0.5,left,3.794866,3.747625,3.786751,0.2480392
495,2.667114,True,0.5,left,1.815353,205.9563,-1.632236,-0.7945524
496,2.436157,True,0.5,up,2.659916,308.0539,1.639577,-2.094502
497,3.269043,True,0.5,up,0.6385746,139.2216,-0.4835554,0.4170752
498,0.7241211,True,0.5,up,2.637217,49.97475,1.696061,2.019478
